  INPUT PROFILE
  219.100 249.820 255.990 257.540 251.720 243.480 235.020 229.330 226.620 223.050
  218.620 215.080 212.130 207.950 202.510 194.340 193.150 198.050 205.490 212.480
  219.840 226.740 233.390 240.020 246.660 253.050 258.760 263.400 267.210 271.020
  275.130 278.310 281.060 283.330 285.480 287.820 290.440 292.760 294.820 296.760
  299.190 300.970 301.640
   -5.810  -5.810  -5.810  -5.810  -5.810  -5.810  -5.810  -5.810  -5.810  -5.810
   -5.810  -5.810  -5.810  -5.810  -5.810  -5.810  -5.810  -5.810  -5.810  -5.810
   -5.810  -5.810  -4.070  -1.410  -0.980  -0.960  -1.140  -0.150   0.820   1.070
    0.980   1.640   1.940   2.080   2.280   2.410   2.470   2.540   2.640   2.810
    2.870   2.900   2.910
    1.000   1.257   1.780   2.886   3.287   3.244   3.158   2.985   2.816   2.053
    1.485   1.340   1.273   1.044   0.899   0.740   0.555   0.360   0.267   0.160
    0.082   0.049   0.045   0.045   0.045   0.045   0.045   0.041   0.038   0.036
    0.035   0.034   0.033   0.032   0.031   0.029   0.027   0.026   0.025   0.026
    0.029   0.032   0.032
   -0.100   0.000   0.000   0.000   0.000   0.000   0.000   0.000   0.000   0.000
    0.000   0.000   0.000   0.000   0.000   0.000   0.000   0.000   0.000   0.000
    0.000   0.000   0.000   0.000   0.000   0.000   0.000   0.000   0.000   0.000
    0.000   0.000   0.000   0.000   0.000   0.000   0.000   0.000   0.000   0.000
    0.000   0.000   0.000
  301.640   2.9101007.300   5.000   2.000
  301.640   3.000   5.000  15.000   0.100   0.300
  500.000   0.000
  
  NUMBER OF PROFILES PROCESSED= 1
  
 CHANNELS PROCESSED:
        1       2       3       4       5       6       7       8       9      10
       11      12      13      14      15      16
  
 INPUT SURFACE EMISSIVITIES SAT = 2
    0.000   0.000   0.000   0.000   0.000   0.000   0.000   0.000   0.000   0.000
    0.000   0.000   0.000   0.000   0.000   0.000
  
  -----------------
  Profile number  1 Instrument  13
  -----------------
  
 CALCULATED BRIGHTNESS TEMPERATURES: SAT = 2 ZENITH ANGLE=  0.00 AZIMUTH ANGLE=   0.00 SURFACE TYPE= 1
   298.43  299.10  299.10  297.10  251.17  273.97  249.87  262.18  292.98  278.02
   294.33  292.42  272.19  261.39  251.52  231.32
  
 CALCULATED RADIANCES: SAT = 2
     0.64    1.07    1.05    1.18    0.35    1.17    7.87   17.14   61.25   63.50
   106.61  116.50   97.41   84.75   73.71   52.81
  
 CALCULATED OVERCAST RADIANCES: SAT = 2
     0.16    0.27    0.27    0.33    0.24    0.59    7.83   15.65   36.09   40.93
    69.88   81.16   81.88   75.34   68.09   52.17
  
 CALCULATED SURFACE TO SPACE TRANSMITTANCE: SAT = 2
   0.7685  0.8549  0.8557  0.7376  0.0141  0.1212  0.0000  0.0001  0.4427  0.3429
   0.3923  0.2767  0.0334  0.0119  0.0059  0.0001
  
 CALCULATED SURFACE EMISSIVITIES SAT = 2
    0.975   0.977   0.977   0.977   0.979   0.979   0.980   0.981   0.984   0.988
    0.992   0.988   0.972   0.969   0.966   0.963
  
 Level to space transmittances for channels
          1       2       3       4       5       6       7       8       9      10
  1  1.0000  1.0000  1.0000  1.0000  0.9979  0.9999  0.9998  1.0000  1.0000  0.9995
  2  1.0000  1.0000  1.0000  1.0000  0.9965  0.9998  0.9995  0.9999  1.0000  0.9984
  3  1.0000  1.0000  1.0000  1.0000  0.9941  0.9996  0.9991  0.9998  1.0000  0.9956
  4  1.0000  1.0000  1.0000  1.0000  0.9909  0.9992  0.9985  0.9995  0.9999  0.9891
  5  1.0000  1.0000  1.0000  1.0000  0.9866  0.9984  0.9979  0.9990  0.9998  0.9789
  6  1.0000  1.0000  1.0000  1.0000  0.9808  0.9971  0.9972  0.9983  0.9996  0.9671
  7  0.9999  1.0000  0.9999  0.9999  0.9728  0.9949  0.9964  0.9974  0.9994  0.9534
  8  0.9999  0.9999  0.9999  0.9999  0.9625  0.9920  0.9953  0.9963  0.9991  0.9365
  9  0.9998  0.9999  0.9998  0.9998  0.9493  0.9883  0.9939  0.9950  0.9987  0.9155
 10  0.9998  0.9998  0.9997  0.9997  0.9331  0.9837  0.9920  0.9934  0.9983  0.8929
 11  0.9997  0.9996  0.9996  0.9995  0.9135  0.9780  0.9896  0.9915  0.9979  0.8726
 12  0.9995  0.9995  0.9994  0.9992  0.8902  0.9708  0.9867  0.9891  0.9974  0.8525
 13  0.9994  0.9992  0.9991  0.9987  0.8629  0.9617  0.9833  0.9860  0.9969  0.8291
 14  0.9992  0.9989  0.9988  0.9981  0.8313  0.9501  0.9791  0.9823  0.9963  0.8040
 15  0.9989  0.9985  0.9983  0.9973  0.7953  0.9353  0.9743  0.9780  0.9957  0.7811
 16  0.9986  0.9980  0.9977  0.9962  0.7553  0.9172  0.9687  0.9730  0.9949  0.7572
 17  0.9982  0.9973  0.9969  0.9947  0.7128  0.8966  0.9624  0.9675  0.9941  0.7368
 18  0.9977  0.9964  0.9959  0.9926  0.6644  0.8721  0.9548  0.9611  0.9932  0.7197
 19  0.9972  0.9953  0.9947  0.9902  0.6135  0.8455  0.9463  0.9539  0.9922  0.7063
 20  0.9966  0.9940  0.9933  0.9872  0.5601  0.8164  0.9368  0.9459  0.9911  0.6959
 21  0.9959  0.9924  0.9916  0.9836  0.5051  0.7848  0.9262  0.9369  0.9900  0.6892
 22  0.9951  0.9905  0.9896  0.9794  0.4501  0.7510  0.9145  0.9272  0.9888  0.6850
 23  0.9942  0.9882  0.9873  0.9744  0.3961  0.7151  0.8817  0.9116  0.9874  0.6817
 24  0.9929  0.9856  0.9846  0.9686  0.3445  0.6773  0.7023  0.8471  0.9847  0.6781
 25  0.9912  0.9825  0.9815  0.9619  0.2962  0.6382  0.5020  0.7579  0.9804  0.6742
 26  0.9891  0.9790  0.9779  0.9544  0.2522  0.5984  0.3595  0.6800  0.9758  0.6699
 27  0.9869  0.9750  0.9740  0.9459  0.2130  0.5585  0.2690  0.6181  0.9713  0.6654
 28  0.9840  0.9705  0.9695  0.9364  0.1786  0.5187  0.1688  0.5362  0.9647  0.6604
 29  0.9783  0.9655  0.9645  0.9260  0.1488  0.4787  0.0559  0.3960  0.9510  0.6545
 30  0.9701  0.9597  0.9589  0.9145  0.1233  0.4389  0.0123  0.2645  0.9319  0.6469
 31  0.9613  0.9535  0.9528  0.9021  0.1019  0.4006  0.0030  0.1799  0.9135  0.6387
 32  0.9498  0.9465  0.9460  0.8887  0.0838  0.3632  0.0005  0.1098  0.8892  0.6279
 33  0.9334  0.9387  0.9382  0.8742  0.0685  0.3263  0.0000  0.0556  0.8530  0.6109
 34  0.9150  0.9300  0.9297  0.8586  0.0559  0.2913  0.0000  0.0265  0.8113  0.5891
 35  0.8952  0.9207  0.9205  0.8422  0.0456  0.2587  0.0000  0.0121  0.7647  0.5624
 36  0.8741  0.9106  0.9106  0.8251  0.0372  0.2288  0.0000  0.0052  0.7130  0.5303
 37  0.8531  0.9001  0.9003  0.8078  0.0305  0.2021  0.0000  0.0022  0.6605  0.4963
 38  0.8332  0.8897  0.8900  0.7908  0.0252  0.1790  0.0000  0.0010  0.6105  0.4630
 39  0.8145  0.8795  0.8800  0.7746  0.0211  0.1594  0.0000  0.0004  0.5627  0.4301
 40  0.7965  0.8698  0.8704  0.7597  0.0179  0.1430  0.0000  0.0002  0.5153  0.3964
 41  0.7806  0.8614  0.8621  0.7471  0.0157  0.1302  0.0000  0.0001  0.4736  0.3658
 42  0.7696  0.8554  0.8563  0.7385  0.0143  0.1219  0.0000  0.0001  0.4454  0.3449
 43  0.7652  0.8530  0.8539  0.7350  0.0137  0.1187  0.0000  0.0001  0.4343  0.3367
          1       2       3       4       5       6       7       8       9      10
  
 Level to space transmittances for channels
         11      12      13      14      15      16
  1  1.0000  1.0000  0.9998  0.9993  0.9985  0.9983
  2  1.0000  1.0000  0.9994  0.9984  0.9968  0.9966
  3  1.0000  1.0000  0.9987  0.9973  0.9945  0.9940
  4  1.0000  1.0000  0.9976  0.9957  0.9913  0.9901
  5  1.0000  1.0000  0.9962  0.9933  0.9866  0.9841
  6  1.0000  1.0000  0.9944  0.9897  0.9799  0.9756
  7  1.0000  1.0000  0.9921  0.9850  0.9711  0.9644
  8  1.0000  0.9999  0.9895  0.9792  0.9603  0.9503
  9  1.0000  0.9999  0.9862  0.9721  0.9471  0.9326
 10  0.9999  0.9999  0.9823  0.9638  0.9320  0.9111
 11  0.9999  0.9999  0.9782  0.9549  0.9159  0.8865
 12  0.9998  0.9998  0.9739  0.9454  0.8992  0.8589
 13  0.9998  0.9998  0.9690  0.9350  0.8814  0.8278
 14  0.9997  0.9997  0.9638  0.9239  0.8629  0.7937
 15  0.9996  0.9997  0.9586  0.9124  0.8447  0.7580
 16  0.9994  0.9996  0.9536  0.9009  0.8273  0.7221
 17  0.9993  0.9995  0.9488  0.8895  0.8105  0.6862
 18  0.9991  0.9994  0.9429  0.8756  0.7904  0.6434
 19  0.9989  0.9993  0.9350  0.8589  0.7661  0.5938
 20  0.9987  0.9991  0.9245  0.8383  0.7365  0.5367
 21  0.9984  0.9989  0.9110  0.8139  0.7015  0.4742
 22  0.9981  0.9987  0.8942  0.7854  0.6617  0.4089
 23  0.9977  0.9984  0.8742  0.7531  0.6175  0.3437
 24  0.9973  0.9980  0.8498  0.7162  0.5694  0.2800
 25  0.9966  0.9973  0.8203  0.6746  0.5182  0.2214
 26  0.9957  0.9962  0.7877  0.6297  0.4659  0.1706
 27  0.9947  0.9951  0.7532  0.5830  0.4143  0.1282
 28  0.9933  0.9932  0.7151  0.5341  0.3644  0.0937
 29  0.9893  0.9877  0.6684  0.4802  0.3158  0.0660
 30  0.9816  0.9766  0.6154  0.4238  0.2697  0.0452
 31  0.9729  0.9643  0.5642  0.3713  0.2286  0.0304
 32  0.9584  0.9438  0.5066  0.3178  0.1900  0.0199
 33  0.9287  0.9028  0.4349  0.2596  0.1514  0.0123
 34  0.8871  0.8469  0.3606  0.2043  0.1163  0.0074
 35  0.8330  0.7763  0.2876  0.1542  0.0858  0.0042
 36  0.7659  0.6915  0.2190  0.1108  0.0602  0.0023
 37  0.6948  0.6047  0.1622  0.0772  0.0410  0.0012
 38  0.6262  0.5244  0.1189  0.0531  0.0277  0.0007
 39  0.5596  0.4496  0.0861  0.0361  0.0185  0.0004
 40  0.4925  0.3776  0.0607  0.0239  0.0121  0.0002
 41  0.4341  0.3177  0.0435  0.0162  0.0081  0.0001
 42  0.3958  0.2801  0.0342  0.0123  0.0061  0.0001
 43  0.3811  0.2660  0.0310  0.0109  0.0054  0.0001
         11      12      13      14      15      16
