  INPUT PROFILE
  219.100 249.820 255.990 257.540 251.720 243.480 235.020 229.330 226.620 223.050
  218.620 215.080 212.130 207.950 202.510 194.340 193.150 198.050 205.490 212.480
  219.840 226.740 233.390 240.020 246.660 253.050 258.760 263.400 267.210 271.020
  275.130 278.310 281.060 283.330 285.480 287.820 290.440 292.760 294.820 296.760
  299.190 300.970 301.640
   -5.810  -5.810  -5.810  -5.810  -5.810  -5.810  -5.810  -5.810  -5.810  -5.810
   -5.810  -5.810  -5.810  -5.810  -5.810  -5.810  -5.810  -5.810  -5.810  -5.810
   -5.810  -5.810  -4.070  -1.410  -0.980  -0.960  -1.140  -0.150   0.820   1.070
    0.980   1.640   1.940   2.080   2.280   2.410   2.470   2.540   2.640   2.810
    2.870   2.900   2.910
    1.000   1.257   1.780   2.886   3.287   3.244   3.158   2.985   2.816   2.053
    1.485   1.340   1.273   1.044   0.899   0.740   0.555   0.360   0.267   0.160
    0.082   0.049   0.045   0.045   0.045   0.045   0.045   0.041   0.038   0.036
    0.035   0.034   0.033   0.032   0.031   0.029   0.027   0.026   0.025   0.026
    0.029   0.032   0.032
   -0.100   0.000   0.000   0.000   0.000   0.000   0.000   0.000   0.000   0.000
    0.000   0.000   0.000   0.000   0.000   0.000   0.000   0.000   0.000   0.000
    0.000   0.000   0.000   0.000   0.000   0.000   0.000   0.000   0.000   0.000
    0.000   0.000   0.000   0.000   0.000   0.000   0.000   0.000   0.000   0.000
    0.000   0.000   0.000
  301.640   2.9101007.300   5.000   2.000
  301.640   3.000   5.000  15.000   0.100   0.300
  500.000   0.000
  
  NUMBER OF PROFILES PROCESSED= 1
  
 CHANNELS PROCESSED:
        1       2       3       4       5       6       7       8       9      10
       11      12      13      14      15      16      17      18
  
 INPUT SURFACE EMISSIVITIES SAT = 9
    0.000   0.000   0.000   0.000   0.000   0.000   0.000   0.000   0.000   0.000
    0.000   0.000   0.000   0.000   0.000   0.000   0.000   0.000
  
  -----------------
  Profile number  1 Instrument  23
  -----------------
  
 CALCULATED BRIGHTNESS TEMPERATURES: SAT = 9 ZENITH ANGLE=  0.00 AZIMUTH ANGLE=   0.00 SURFACE TYPE= 1
   217.07  218.13  244.05  261.82  270.71  287.77  291.81  294.29  276.81  264.34
   256.56  241.74  286.86  272.88  249.95  292.73  299.26  298.34
  
 CALCULATED RADIANCES: SAT = 9
    41.64   41.35   65.71   85.11   95.49  115.37  115.89  106.25   62.04   19.78
    11.85    4.77    2.17    1.13    0.33    1.17    1.07    0.59
  
 CALCULATED OVERCAST RADIANCES: SAT = 9
    41.64   41.34   63.20   75.77   80.98   86.30   81.45   69.60   40.17   17.34
    11.54    4.77    0.88    0.58    0.26    0.37    0.27    0.15
  
 CALCULATED SURFACE TO SPACE TRANSMITTANCE: SAT = 9
   0.0000  0.0000  0.0008  0.0114  0.0278  0.1405  0.2577  0.3927  0.3329  0.0003
   0.0000  0.0000  0.3236  0.1032  0.0043  0.5331  0.8637  0.7552
  
 CALCULATED SURFACE EMISSIVITIES SAT = 9
    0.959   0.961   0.964   0.969   0.972   0.981   0.988   0.992   0.988   0.982
    0.981   0.978   0.979   0.979   0.979   0.978   0.977   0.975
  
 Level to space transmittances for channels
          1       2       3       4       5       6       7       8       9      10
  1  0.9953  0.9972  0.9989  0.9994  0.9998  1.0000  1.0000  1.0000  0.9994  1.0000
  2  0.9919  0.9948  0.9975  0.9988  0.9993  1.0000  1.0000  1.0000  0.9982  0.9999
  3  0.9851  0.9902  0.9956  0.9979  0.9985  0.9999  1.0000  1.0000  0.9953  0.9998
  4  0.9734  0.9827  0.9929  0.9968  0.9974  0.9999  1.0000  1.0000  0.9885  0.9996
  5  0.9550  0.9713  0.9889  0.9949  0.9959  0.9997  1.0000  1.0000  0.9776  0.9991
  6  0.9281  0.9553  0.9833  0.9921  0.9939  0.9995  0.9999  1.0000  0.9653  0.9982
  7  0.8910  0.9340  0.9760  0.9884  0.9915  0.9993  0.9999  1.0000  0.9508  0.9970
  8  0.8427  0.9069  0.9669  0.9837  0.9885  0.9991  0.9999  1.0000  0.9329  0.9955
  9  0.7826  0.8731  0.9557  0.9780  0.9849  0.9988  0.9998  1.0000  0.9107  0.9937
 10  0.7111  0.8322  0.9422  0.9712  0.9807  0.9985  0.9998  0.9999  0.8868  0.9916
 11  0.6302  0.7851  0.9273  0.9637  0.9762  0.9982  0.9998  0.9999  0.8651  0.9889
 12  0.5424  0.7321  0.9109  0.9555  0.9714  0.9979  0.9997  0.9998  0.8438  0.9855
 13  0.4508  0.6733  0.8926  0.9462  0.9660  0.9976  0.9997  0.9997  0.8189  0.9812
 14  0.3591  0.6100  0.8726  0.9360  0.9602  0.9973  0.9996  0.9996  0.7923  0.9759
 15  0.2712  0.5445  0.8518  0.9252  0.9544  0.9971  0.9995  0.9995  0.7679  0.9694
 16  0.1910  0.4793  0.8311  0.9142  0.9488  0.9968  0.9994  0.9994  0.7423  0.9619
 17  0.1246  0.4167  0.8105  0.9031  0.9434  0.9966  0.9993  0.9992  0.7205  0.9536
 18  0.0719  0.3505  0.7852  0.8895  0.9367  0.9964  0.9992  0.9990  0.7021  0.9439
 19  0.0377  0.2858  0.7537  0.8729  0.9278  0.9961  0.9991  0.9987  0.6879  0.9335
 20  0.0175  0.2241  0.7145  0.8525  0.9160  0.9957  0.9989  0.9985  0.6768  0.9222
 21  0.0071  0.1685  0.6678  0.8281  0.9009  0.9952  0.9987  0.9981  0.6697  0.9101
 22  0.0026  0.1212  0.6143  0.7997  0.8824  0.9944  0.9984  0.9978  0.6653  0.8973
 23  0.0008  0.0832  0.5553  0.7674  0.8603  0.9934  0.9981  0.9974  0.6618  0.8809
 24  0.0002  0.0538  0.4914  0.7302  0.8337  0.9910  0.9976  0.9969  0.6580  0.8333
 25  0.0001  0.0327  0.4251  0.6877  0.8020  0.9863  0.9965  0.9961  0.6540  0.7682
 26  0.0000  0.0189  0.3600  0.6418  0.7671  0.9807  0.9950  0.9952  0.6495  0.7088
 27  0.0000  0.0104  0.2988  0.5940  0.7304  0.9747  0.9934  0.9942  0.6449  0.6591
 28  0.0000  0.0053  0.2428  0.5434  0.6903  0.9658  0.9907  0.9926  0.6398  0.5934
 29  0.0000  0.0025  0.1921  0.4867  0.6421  0.9462  0.9833  0.9886  0.6339  0.4786
 30  0.0000  0.0011  0.1488  0.4272  0.5882  0.9175  0.9695  0.9807  0.6264  0.3595
 31  0.0000  0.0005  0.1139  0.3724  0.5362  0.8895  0.9546  0.9719  0.6184  0.2722
 32  0.0000  0.0002  0.0850  0.3167  0.4784  0.8501  0.9310  0.9573  0.6078  0.1892
 33  0.0000  0.0001  0.0603  0.2568  0.4075  0.7850  0.8862  0.9275  0.5914  0.1124
 34  0.0000  0.0000  0.0411  0.2007  0.3347  0.7059  0.8267  0.8859  0.5703  0.0620
 35  0.0000  0.0000  0.0267  0.1505  0.2641  0.6158  0.7533  0.8320  0.5446  0.0321
 36  0.0000  0.0000  0.0164  0.1076  0.1987  0.5174  0.6667  0.7651  0.5136  0.0155
 37  0.0000  0.0000  0.0097  0.0746  0.1451  0.4246  0.5793  0.6942  0.4808  0.0074
 38  0.0000  0.0000  0.0057  0.0511  0.1048  0.3451  0.4992  0.6258  0.4487  0.0036
 39  0.0000  0.0000  0.0033  0.0346  0.0747  0.2767  0.4254  0.5595  0.4170  0.0018
 40  0.0000  0.0000  0.0019  0.0229  0.0519  0.2164  0.3551  0.4927  0.3845  0.0009
 41  0.0000  0.0000  0.0011  0.0156  0.0367  0.1702  0.2972  0.4345  0.3550  0.0005
 42  0.0000  0.0000  0.0008  0.0117  0.0285  0.1429  0.2610  0.3963  0.3348  0.0003
 43  0.0000  0.0000  0.0007  0.0105  0.0257  0.1330  0.2475  0.3816  0.3269  0.0003
          1       2       3       4       5       6       7       8       9      10
  
 Level to space transmittances for channels
         11      12      13      14      15      16      17      18
  1  0.9999  0.9996  0.9998  1.0000  0.9985  0.9999  1.0000  1.0000
  2  0.9997  0.9990  0.9997  0.9999  0.9970  0.9999  1.0000  1.0000
  3  0.9995  0.9983  0.9996  0.9998  0.9946  0.9998  1.0000  1.0000
  4  0.9990  0.9973  0.9994  0.9997  0.9916  0.9996  1.0000  1.0000
  5  0.9986  0.9964  0.9992  0.9992  0.9878  0.9994  1.0000  1.0000
  6  0.9981  0.9952  0.9989  0.9980  0.9828  0.9991  1.0000  1.0000
  7  0.9975  0.9936  0.9983  0.9959  0.9760  0.9987  1.0000  1.0000
  8  0.9968  0.9914  0.9974  0.9931  0.9673  0.9982  0.9999  0.9999
  9  0.9960  0.9886  0.9962  0.9895  0.9563  0.9975  0.9999  0.9999
 10  0.9949  0.9850  0.9947  0.9851  0.9427  0.9967  0.9998  0.9998
 11  0.9936  0.9804  0.9929  0.9796  0.9264  0.9958  0.9997  0.9998
 12  0.9920  0.9747  0.9907  0.9725  0.9070  0.9947  0.9996  0.9997
 13  0.9900  0.9680  0.9880  0.9634  0.8840  0.9934  0.9994  0.9996
 14  0.9878  0.9599  0.9846  0.9515  0.8571  0.9917  0.9991  0.9994
 15  0.9852  0.9505  0.9803  0.9362  0.8262  0.9896  0.9988  0.9993
 16  0.9823  0.9396  0.9752  0.9173  0.7919  0.9868  0.9984  0.9991
 17  0.9791  0.9273  0.9694  0.8956  0.7551  0.9833  0.9978  0.9988
 18  0.9754  0.9124  0.9619  0.8698  0.7116  0.9785  0.9971  0.9986
 19  0.9711  0.8960  0.9528  0.8421  0.6638  0.9727  0.9962  0.9982
 20  0.9663  0.8779  0.9416  0.8119  0.6110  0.9657  0.9950  0.9979
 21  0.9609  0.8581  0.9282  0.7795  0.5545  0.9573  0.9937  0.9975
 22  0.9547  0.8367  0.9125  0.7449  0.4956  0.9475  0.9920  0.9970
 23  0.9364  0.7789  0.8947  0.7084  0.4359  0.9362  0.9900  0.9965
 24  0.8234  0.5083  0.8746  0.6700  0.3769  0.9234  0.9876  0.9956
 25  0.6781  0.2617  0.8523  0.6302  0.3203  0.9090  0.9849  0.9941
 26  0.5585  0.1319  0.8281  0.5896  0.2676  0.8930  0.9817  0.9923
 27  0.4714  0.0714  0.8023  0.5489  0.2199  0.8755  0.9781  0.9904
 28  0.3597  0.0260  0.7750  0.5081  0.1779  0.8565  0.9740  0.9877
 29  0.1926  0.0024  0.7449  0.4668  0.1416  0.8360  0.9693  0.9818
 30  0.0810  0.0001  0.7124  0.4255  0.1111  0.8141  0.9640  0.9728
 31  0.0348  0.0000  0.6796  0.3857  0.0858  0.7909  0.9581  0.9634
 32  0.0113  0.0000  0.6448  0.3469  0.0654  0.7666  0.9516  0.9508
 33  0.0023  0.0000  0.6068  0.3086  0.0490  0.7411  0.9442  0.9327
 34  0.0004  0.0000  0.5681  0.2725  0.0364  0.7146  0.9360  0.9125
 35  0.0000  0.0000  0.5295  0.2391  0.0268  0.6876  0.9271  0.8909
 36  0.0000  0.0000  0.4911  0.2087  0.0197  0.6603  0.9174  0.8681
 37  0.0000  0.0000  0.4545  0.1819  0.0144  0.6335  0.9074  0.8454
 38  0.0000  0.0000  0.4209  0.1590  0.0107  0.6079  0.8974  0.8241
 39  0.0000  0.0000  0.3904  0.1397  0.0080  0.5842  0.8875  0.8041
 40  0.0000  0.0000  0.3630  0.1239  0.0062  0.5631  0.8782  0.7849
 41  0.0000  0.0000  0.3404  0.1118  0.0050  0.5460  0.8700  0.7681
 42  0.0000  0.0000  0.3251  0.1040  0.0043  0.5342  0.8643  0.7564
 43  0.0000  0.0000  0.3190  0.1010  0.0041  0.5296  0.8620  0.7517
         11      12      13      14      15      16      17      18
