  INPUT PROFILE
  219.100 249.820 255.990 257.540 251.720 243.480 235.020 229.330 226.620 223.050
  218.620 215.080 212.130 207.950 202.510 194.340 193.150 198.050 205.490 212.480
  219.840 226.740 233.390 240.020 246.660 253.050 258.760 263.400 267.210 271.020
  275.130 278.310 281.060 283.330 285.480 287.820 290.440 292.760 294.820 296.760
  299.190 300.970 301.640
   -5.810  -5.810  -5.810  -5.810  -5.810  -5.810  -5.810  -5.810  -5.810  -5.810
   -5.810  -5.810  -5.810  -5.810  -5.810  -5.810  -5.810  -5.810  -5.810  -5.810
   -5.810  -5.810  -4.070  -1.410  -0.980  -0.960  -1.140  -0.150   0.820   1.070
    0.980   1.640   1.940   2.080   2.280   2.410   2.470   2.540   2.640   2.810
    2.870   2.900   2.910
    1.000   1.257   1.780   2.886   3.287   3.244   3.158   2.985   2.816   2.053
    1.485   1.340   1.273   1.044   0.899   0.740   0.555   0.360   0.267   0.160
    0.082   0.049   0.045   0.045   0.045   0.045   0.045   0.041   0.038   0.036
    0.035   0.034   0.033   0.032   0.031   0.029   0.027   0.026   0.025   0.026
    0.029   0.032   0.032
   -0.100   0.000   0.000   0.000   0.000   0.000   0.000   0.000   0.000   0.000
    0.000   0.000   0.000   0.000   0.000   0.000   0.000   0.000   0.000   0.000
    0.000   0.000   0.000   0.000   0.000   0.000   0.000   0.000   0.000   0.000
    0.000   0.000   0.000   0.000   0.000   0.000   0.000   0.000   0.000   0.000
    0.000   0.000   0.000
  301.640   2.9101007.300   5.000   2.000
  301.640   3.000   5.000  15.000   0.100   0.300
  500.000   0.000
  
  NUMBER OF PROFILES PROCESSED= 1
  
 CHANNELS PROCESSED:
        1       2       3       4       5       6       7       8       9      10
       11      12      13      14      15      16
  
 INPUT SURFACE EMISSIVITIES SAT = 1
    0.000   0.000   0.000   0.000   0.000   0.000   0.000   0.000   0.000   0.000
    0.000   0.000   0.000   0.000   0.000   0.000
  
  -----------------
  Profile number  1 Instrument  13
  -----------------
  
 CALCULATED BRIGHTNESS TEMPERATURES: SAT = 1 ZENITH ANGLE=  0.00 AZIMUTH ANGLE=   0.00 SURFACE TYPE= 1
   298.44  299.02  299.09  297.28  260.27  278.33  249.28  262.09  292.83  278.33
   294.31  292.43  272.11  261.47  252.21  233.00
  
 CALCULATED RADIANCES: SAT = 1
     0.65    1.09    1.05    1.18    0.57    1.46    7.61   17.03   60.55   64.04
   106.48  116.41   97.29   84.83   74.47   54.42
  
 CALCULATED OVERCAST RADIANCES: SAT = 1
     0.16    0.28    0.27    0.32    0.35    0.68    7.57   15.58   35.72   41.25
    69.78   81.05   81.83   75.45   68.55   53.66
  
 CALCULATED SURFACE TO SPACE TRANSMITTANCE: SAT = 1
   0.7721  0.8491  0.8550  0.7474  0.0363  0.1751  0.0000  0.0001  0.4343  0.3451
   0.3920  0.2776  0.0330  0.0118  0.0065  0.0001
  
 CALCULATED SURFACE EMISSIVITIES SAT = 1
    0.975   0.977   0.977   0.977   0.979   0.979   0.980   0.981   0.984   0.988
    0.992   0.988   0.972   0.969   0.966   0.963
  
 Level to space transmittances for channels
          1       2       3       4       5       6       7       8       9      10
  1  1.0000  1.0000  1.0000  1.0000  0.9990  0.9999  0.9998  1.0000  1.0000  0.9995
  2  1.0000  1.0000  1.0000  1.0000  0.9982  0.9998  0.9995  0.9999  1.0000  0.9984
  3  1.0000  1.0000  1.0000  1.0000  0.9967  0.9997  0.9990  0.9998  1.0000  0.9957
  4  1.0000  1.0000  1.0000  1.0000  0.9947  0.9995  0.9984  0.9995  0.9999  0.9893
  5  1.0000  1.0000  1.0000  1.0000  0.9921  0.9991  0.9978  0.9990  0.9998  0.9792
  6  1.0000  1.0000  1.0000  1.0000  0.9883  0.9981  0.9971  0.9984  0.9997  0.9676
  7  0.9999  1.0000  0.9999  0.9999  0.9831  0.9965  0.9962  0.9975  0.9995  0.9540
  8  0.9999  0.9999  0.9999  0.9999  0.9763  0.9943  0.9950  0.9963  0.9992  0.9373
  9  0.9998  0.9999  0.9998  0.9998  0.9677  0.9916  0.9934  0.9950  0.9988  0.9167
 10  0.9997  0.9998  0.9997  0.9997  0.9572  0.9881  0.9915  0.9935  0.9985  0.8945
 11  0.9996  0.9997  0.9996  0.9995  0.9443  0.9838  0.9889  0.9916  0.9981  0.8744
 12  0.9995  0.9995  0.9994  0.9992  0.9288  0.9784  0.9859  0.9892  0.9977  0.8547
 13  0.9993  0.9993  0.9991  0.9988  0.9101  0.9715  0.9822  0.9863  0.9972  0.8317
 14  0.9990  0.9990  0.9987  0.9982  0.8878  0.9626  0.9778  0.9827  0.9967  0.8070
 15  0.9987  0.9986  0.9983  0.9974  0.8613  0.9512  0.9726  0.9784  0.9960  0.7845
 16  0.9983  0.9980  0.9976  0.9963  0.8311  0.9372  0.9667  0.9735  0.9953  0.7610
 17  0.9978  0.9974  0.9969  0.9949  0.7979  0.9211  0.9600  0.9682  0.9945  0.7410
 18  0.9973  0.9965  0.9959  0.9930  0.7592  0.9019  0.9520  0.9619  0.9936  0.7242
 19  0.9966  0.9954  0.9947  0.9906  0.7175  0.8808  0.9429  0.9549  0.9926  0.7111
 20  0.9959  0.9940  0.9932  0.9878  0.6724  0.8573  0.9328  0.9470  0.9916  0.7008
 21  0.9951  0.9924  0.9915  0.9844  0.6245  0.8314  0.9216  0.9383  0.9904  0.6942
 22  0.9941  0.9904  0.9895  0.9804  0.5748  0.8033  0.9092  0.9287  0.9892  0.6901
 23  0.9931  0.9881  0.9871  0.9756  0.5242  0.7731  0.8746  0.9132  0.9878  0.6869
 24  0.9917  0.9853  0.9844  0.9701  0.4735  0.7408  0.6870  0.8479  0.9850  0.6833
 25  0.9898  0.9821  0.9813  0.9637  0.4240  0.7068  0.4817  0.7575  0.9806  0.6794
 26  0.9875  0.9785  0.9777  0.9565  0.3767  0.6716  0.3400  0.6787  0.9758  0.6752
 27  0.9852  0.9743  0.9737  0.9484  0.3324  0.6357  0.2521  0.6162  0.9711  0.6707
 28  0.9822  0.9695  0.9693  0.9394  0.2916  0.5992  0.1569  0.5335  0.9643  0.6658
 29  0.9765  0.9642  0.9643  0.9294  0.2542  0.5614  0.0520  0.3921  0.9502  0.6599
 30  0.9684  0.9582  0.9586  0.9184  0.2203  0.5228  0.0116  0.2603  0.9305  0.6524
 31  0.9598  0.9516  0.9524  0.9065  0.1901  0.4851  0.0029  0.1760  0.9117  0.6442
 32  0.9486  0.9443  0.9456  0.8937  0.1631  0.4474  0.0005  0.1066  0.8867  0.6333
 33  0.9327  0.9360  0.9378  0.8797  0.1390  0.4088  0.0000  0.0534  0.8497  0.6162
 34  0.9148  0.9270  0.9293  0.8647  0.1179  0.3715  0.0000  0.0252  0.8070  0.5942
 35  0.8956  0.9173  0.9200  0.8489  0.0997  0.3360  0.0000  0.0113  0.7595  0.5672
 36  0.8751  0.9068  0.9101  0.8323  0.0841  0.3027  0.0000  0.0048  0.7069  0.5347
 37  0.8546  0.8959  0.8997  0.8156  0.0711  0.2723  0.0000  0.0021  0.6536  0.5003
 38  0.8353  0.8850  0.8894  0.7991  0.0603  0.2455  0.0000  0.0009  0.6031  0.4666
 39  0.8170  0.8745  0.8794  0.7833  0.0517  0.2222  0.0000  0.0004  0.5548  0.4333
 40  0.7994  0.8644  0.8698  0.7688  0.0449  0.2023  0.0000  0.0002  0.5071  0.3992
 41  0.7839  0.8558  0.8615  0.7566  0.0398  0.1865  0.0000  0.0001  0.4653  0.3683
 42  0.7731  0.8497  0.8556  0.7482  0.0366  0.1760  0.0000  0.0001  0.4370  0.3471
 43  0.7688  0.8472  0.8532  0.7448  0.0354  0.1720  0.0000  0.0000  0.4259  0.3387
          1       2       3       4       5       6       7       8       9      10
  
 Level to space transmittances for channels
         11      12      13      14      15      16
  1  1.0000  1.0000  0.9998  0.9993  0.9985  0.9984
  2  1.0000  1.0000  0.9994  0.9985  0.9968  0.9968
  3  1.0000  1.0000  0.9987  0.9974  0.9945  0.9943
  4  1.0000  1.0000  0.9976  0.9959  0.9913  0.9906
  5  1.0000  1.0000  0.9962  0.9936  0.9867  0.9849
  6  1.0000  1.0000  0.9943  0.9902  0.9800  0.9770
  7  1.0000  1.0000  0.9921  0.9857  0.9713  0.9665
  8  1.0000  0.9999  0.9894  0.9801  0.9605  0.9533
  9  1.0000  0.9999  0.9861  0.9733  0.9474  0.9368
 10  0.9999  0.9999  0.9822  0.9653  0.9323  0.9168
 11  0.9999  0.9999  0.9781  0.9567  0.9164  0.8940
 12  0.9998  0.9998  0.9737  0.9475  0.8999  0.8684
 13  0.9998  0.9998  0.9688  0.9373  0.8823  0.8397
 14  0.9997  0.9998  0.9636  0.9263  0.8641  0.8082
 15  0.9996  0.9997  0.9584  0.9150  0.8462  0.7751
 16  0.9994  0.9996  0.9534  0.9036  0.8290  0.7419
 17  0.9993  0.9995  0.9486  0.8922  0.8125  0.7087
 18  0.9991  0.9994  0.9426  0.8784  0.7928  0.6688
 19  0.9988  0.9992  0.9347  0.8617  0.7690  0.6219
 20  0.9986  0.9990  0.9241  0.8412  0.7401  0.5672
 21  0.9983  0.9988  0.9105  0.8167  0.7060  0.5061
 22  0.9980  0.9986  0.8937  0.7883  0.6671  0.4413
 23  0.9976  0.9984  0.8736  0.7560  0.6240  0.3754
 24  0.9971  0.9979  0.8491  0.7191  0.5772  0.3098
 25  0.9964  0.9972  0.8195  0.6772  0.5272  0.2480
 26  0.9955  0.9961  0.7868  0.6321  0.4760  0.1934
 27  0.9945  0.9950  0.7521  0.5852  0.4253  0.1470
 28  0.9930  0.9931  0.7139  0.5359  0.3760  0.1086
 29  0.9891  0.9876  0.6670  0.4813  0.3276  0.0772
 30  0.9813  0.9765  0.6139  0.4242  0.2813  0.0533
 31  0.9726  0.9642  0.5626  0.3712  0.2397  0.0361
 32  0.9580  0.9437  0.5049  0.3172  0.2003  0.0237
 33  0.9283  0.9029  0.4331  0.2587  0.1603  0.0148
 34  0.8866  0.8471  0.3588  0.2032  0.1238  0.0089
 35  0.8326  0.7767  0.2860  0.1532  0.0917  0.0051
 36  0.7655  0.6920  0.2176  0.1099  0.0647  0.0028
 37  0.6944  0.6055  0.1610  0.0765  0.0442  0.0015
 38  0.6258  0.5252  0.1179  0.0526  0.0300  0.0008
 39  0.5593  0.4505  0.0853  0.0357  0.0201  0.0004
 40  0.4922  0.3785  0.0601  0.0237  0.0132  0.0002
 41  0.4338  0.3187  0.0430  0.0161  0.0089  0.0001
 42  0.3956  0.2811  0.0338  0.0121  0.0066  0.0001
 43  0.3809  0.2670  0.0306  0.0108  0.0059  0.0001
         11      12      13      14      15      16
